PE FL                   SPECTRUM    ASCII       PEDS        1.60        
  -1
1DDBFF~1.TXT
18/01/22
13:01:31.00
18/01/22
13:01:31.00


598.500000
1









LS55
350.00
3.00
2.50
SCAN
1
20
100
100
0
60
0
1
0
1
7
ON
600 350 
1 0 0
#HDR
-1
-1
#GR
NM

0.00002384185791015625
0.0
400.000000
0.500000
398
8
113.872000
1.465000
#DATA
400.000000	9.637000   
400.500000	11.233000  
401.000000	10.775000  
401.500000	11.465000  
402.000000	12.002000  
402.500000	12.859000  
403.000000	13.788000  
403.500000	13.354000  
404.000000	14.845000  
404.500000	15.678000  
405.000000	16.613000  
405.500000	17.314000  
406.000000	18.330000  
406.500000	18.639000  
407.000000	19.898000  
407.500000	22.035000  
408.000000	23.448000  
408.500000	24.898000  
409.000000	24.479000  
409.500000	26.090000  
410.000000	26.461000  
410.500000	28.302000  
411.000000	30.013000  
411.500000	31.625000  
412.000000	33.156000  
412.500000	34.565000  
413.000000	36.139000  
413.500000	36.825000  
414.000000	38.974000  
414.500000	41.806000  
415.000000	41.302000  
415.500000	43.494000  
416.000000	46.460000  
416.500000	47.953000  
417.000000	49.491000  
417.500000	50.475000  
418.000000	52.671000  
418.500000	54.082000  
419.000000	55.922000  
419.500000	58.685000  
420.000000	60.091000  
420.500000	61.700000  
421.000000	63.307000  
421.500000	64.792000  
422.000000	65.721000  
422.500000	67.833000  
423.000000	69.339000  
423.500000	70.703999  
424.000000	73.542000  
424.500000	74.069999  
425.000000	76.447999  
425.500000	76.962000  
426.000000	77.246000  
426.500000	79.531000  
427.000000	79.122000  
427.500000	80.789000  
428.000000	83.034000  
428.500000	85.193000  
429.000000	85.752000  
429.500000	85.498000  
430.000000	86.276000  
430.500000	88.176000  
431.000000	89.915000  
431.500000	90.679000  
432.000000	91.075999  
432.500000	93.224000  
433.000000	95.285000  
433.500000	99.077000  
434.000000	95.854000  
434.500000	96.507000  
435.000000	98.751000  
435.500000	99.532000  
436.000000	99.149000  
436.500000	99.959000  
437.000000	101.965000 
437.500000	102.833000 
438.000000	102.003000 
438.500000	103.665000 
439.000000	106.604000 
439.500000	108.459000 
440.000000	108.753000 
440.500000	108.097000 
441.000000	107.139000 
441.500000	108.258000 
442.000000	107.808000 
442.500000	109.139000 
443.000000	109.143000 
443.500000	109.759000 
444.000000	109.116000 
444.500000	110.314000 
445.000000	109.941000 
445.500000	110.208000 
446.000000	111.784000 
446.500000	111.990000 
447.000000	113.579000 
447.500000	112.974000 
448.000000	113.470000 
448.500000	112.882000 
449.000000	111.544000 
449.500000	112.320000 
450.000000	113.872000 
450.500000	112.835000 
451.000000	113.377000 
451.500000	112.605000 
452.000000	113.733000 
452.500000	112.458000 
453.000000	110.738000 
453.500000	110.788000 
454.000000	112.231000 
454.500000	113.443000 
455.000000	111.606000 
455.500000	111.741000 
456.000000	110.337000 
456.500000	112.127000 
457.000000	110.074000 
457.500000	111.455000 
458.000000	109.007000 
458.500000	108.892000 
459.000000	110.036000 
459.500000	109.415000 
460.000000	108.728000 
460.500000	110.797000 
461.000000	109.762000 
461.500000	109.046000 
462.000000	107.021000 
462.500000	108.393000 
463.000000	107.550000 
463.500000	107.177000 
464.000000	108.603000 
464.500000	107.860000 
465.000000	106.414000 
465.500000	106.367000 
466.000000	107.690000 
466.500000	107.069000 
467.000000	107.048000 
467.500000	105.836000 
468.000000	104.620000 
468.500000	106.172000 
469.000000	103.606000 
469.500000	105.909000 
470.000000	104.605000 
470.500000	104.433000 
471.000000	104.683000 
471.500000	104.808000 
472.000000	105.151000 
472.500000	104.057000 
473.000000	104.350000 
473.500000	103.516000 
474.000000	104.508000 
474.500000	103.227000 
475.000000	104.051000 
475.500000	103.444000 
476.000000	102.578000 
476.500000	103.324000 
477.000000	101.215000 
477.500000	101.317000 
478.000000	102.798000 
478.500000	101.934000 
479.000000	101.570000 
479.500000	101.895000 
480.000000	101.061000 
480.500000	102.665000 
481.000000	101.312000 
481.500000	100.328000 
482.000000	98.366000  
482.500000	99.208000  
483.000000	98.778000  
483.500000	97.462999  
484.000000	98.010000  
484.500000	96.147000  
485.000000	99.669000  
485.500000	97.804000  
486.000000	97.321000  
486.500000	97.147000  
487.000000	94.421000  
487.500000	94.584999  
488.000000	94.883000  
488.500000	93.283000  
489.000000	94.371000  
489.500000	94.226000  
490.000000	93.063000  
490.500000	92.776000  
491.000000	90.794000  
491.500000	90.989000  
492.000000	89.974999  
492.500000	90.994000  
493.000000	87.401000  
493.500000	87.380000  
494.000000	88.255000  
494.500000	87.551000  
495.000000	86.915000  
495.500000	85.087000  
496.000000	85.310000  
496.500000	85.626000  
497.000000	82.735000  
497.500000	83.634000  
498.000000	82.806000  
498.500000	81.697999  
499.000000	80.561000  
499.500000	80.302000  
500.000000	82.119000  
500.500000	80.153000  
501.000000	81.249000  
501.500000	77.605999  
502.000000	75.867999  
502.500000	77.328000  
503.000000	76.252000  
503.500000	74.956000  
504.000000	75.120000  
504.500000	73.581000  
505.000000	73.711000  
505.500000	74.370000  
506.000000	72.541000  
506.500000	71.568000  
507.000000	70.156000  
507.500000	70.539000  
508.000000	69.886000  
508.500000	69.053000  
509.000000	68.361000  
509.500000	66.961000  
510.000000	65.413000  
510.500000	65.473000  
511.000000	64.663000  
511.500000	64.526000  
512.000000	63.605000  
512.500000	63.453000  
513.000000	63.232000  
513.500000	59.006000  
514.000000	59.757000  
514.500000	59.141000  
515.000000	58.398000  
515.500000	56.169000  
516.000000	56.504000  
516.500000	54.296000  
517.000000	54.689000  
517.500000	53.629000  
518.000000	53.113000  
518.500000	52.464000  
519.000000	50.260000  
519.500000	49.753000  
520.000000	49.152000  
520.500000	47.882000  
521.000000	46.514000  
521.500000	45.711000  
522.000000	44.227000  
522.500000	42.753000  
523.000000	43.436000  
523.500000	41.405000  
524.000000	40.609000  
524.500000	39.653000  
525.000000	40.195000  
525.500000	38.678000  
526.000000	38.247000  
526.500000	37.305000  
527.000000	35.595000  
527.500000	35.429000  
528.000000	34.395000  
528.500000	33.936000  
529.000000	32.084000  
529.500000	30.851000  
530.000000	30.591000  
530.500000	30.547000  
531.000000	29.240000  
531.500000	28.753000  
532.000000	27.608000  
532.500000	27.530000  
533.000000	26.819000  
533.500000	25.920000  
534.000000	25.391000  
534.500000	25.442000  
535.000000	24.080000  
535.500000	23.053000  
536.000000	23.054000  
536.500000	22.858000  
537.000000	22.919000  
537.500000	21.001000  
538.000000	20.826000  
538.500000	20.088000  
539.000000	19.795000  
539.500000	19.093000  
540.000000	18.583000  
540.500000	18.414000  
541.000000	18.436000  
541.500000	17.241000  
542.000000	17.081000  
542.500000	17.279000  
543.000000	16.192000  
543.500000	16.050000  
544.000000	15.198000  
544.500000	15.609000  
545.000000	14.905000  
545.500000	14.260000  
546.000000	14.145000  
546.500000	13.902000  
547.000000	13.522000  
547.500000	13.681000  
548.000000	12.892000  
548.500000	13.347000  
549.000000	12.687000  
549.500000	12.375000  
550.000000	12.262000  
550.500000	12.123000  
551.000000	11.671000  
551.500000	11.019000  
552.000000	11.269000  
552.500000	10.686000  
553.000000	10.327000  
553.500000	10.558000  
554.000000	10.645000  
554.500000	9.885000   
555.000000	9.026999   
555.500000	9.763999   
556.000000	9.730000   
556.500000	9.436999   
557.000000	9.504000   
557.500000	8.832000   
558.000000	8.182000   
558.500000	8.082000   
559.000000	8.160000   
559.500000	8.253000   
560.000000	8.269000   
560.500000	7.796000   
561.000000	7.520000   
561.500000	8.298999   
562.000000	7.174000   
562.500000	6.988000   
563.000000	7.221000   
563.500000	6.926000   
564.000000	6.769000   
564.500000	6.504000   
565.000000	6.724000   
565.500000	6.437000   
566.000000	6.434000   
566.500000	5.912000   
567.000000	5.497000   
567.500000	5.763000   
568.000000	5.744000   
568.500000	5.411000   
569.000000	4.879000   
569.500000	5.559000   
570.000000	5.114000   
570.500000	5.015000   
571.000000	4.990000   
571.500000	5.042000   
572.000000	5.198000   
572.500000	4.985000   
573.000000	4.799000   
573.500000	4.459000   
574.000000	4.494000   
574.500000	4.409000   
575.000000	4.379000   
575.500000	3.958000   
576.000000	4.140000   
576.500000	4.207000   
577.000000	3.955000   
577.500000	4.027000   
578.000000	4.262000   
578.500000	3.565000   
579.000000	3.619000   
579.500000	3.800000   
580.000000	3.434000   
580.500000	3.568000   
581.000000	3.691000   
581.500000	3.198000   
582.000000	3.337000   
582.500000	3.235000   
583.000000	3.113000   
583.500000	3.163000   
584.000000	2.930000   
584.500000	2.664000   
585.000000	2.895000   
585.500000	2.836000   
586.000000	2.794000   
586.500000	2.746000   
587.000000	2.791000   
587.500000	2.644000   
588.000000	2.375000   
588.500000	2.300000   
589.000000	2.366000   
589.500000	2.446000   
590.000000	2.311000   
590.500000	2.201000   
591.000000	2.255000   
591.500000	2.193000   
592.000000	1.978000   
592.500000	2.114000   
593.000000	1.956000   
593.500000	2.189000   
594.000000	2.186000   
594.500000	2.027000   
595.000000	1.871000   
595.500000	1.465000   
596.000000	1.828000   
596.500000	1.839000   
597.000000	1.891000   
597.500000	1.816000   
598.000000	1.622000   
598.500000	1.638000   

