PE FL                   SPECTRUM    ASCII       PEDS        1.60        
  -1
DMDEE2~1.TXT
18/03/08
10:59:41.00
18/03/08
10:59:41.00


596.500000
1









LS55
350.00
11.00
2.90
SCAN
1
20
100
100
0
60
0
1
0
1
7
ON
600 350 
1 0 0
#HDR
-1
-1
#GR
NM

0.00002384185791015625
0.0
400.000000
0.500000
394
8
908.730741
2.736428
#DATA
400.000000	27.143000  
400.500000	29.365799  
401.000000	31.658905  
401.500000	34.082442  
402.000000	36.659207  
402.500000	39.416206  
403.000000	42.395677  
403.500000	45.611015  
404.000000	49.063331  
404.500000	52.793849  
405.000000	56.789995  
405.500000	61.100659  
406.000000	65.722476  
406.500000	70.679482  
407.000000	75.910842  
407.500000	81.444967  
408.000000	87.195471  
408.500000	93.233182  
409.000000	99.628585  
409.500000	106.536326 
410.000000	113.927444 
410.500000	121.853765 
411.000000	130.192255 
411.500000	138.949542 
412.000000	148.220656 
412.500000	158.118573 
413.000000	168.673411 
413.500000	179.912259 
414.000000	191.682175 
414.500000	203.937722 
415.000000	216.799543 
415.500000	230.293900 
416.000000	244.453252 
416.500000	259.269291 
417.000000	274.440779 
417.500000	289.848009 
418.000000	305.613983 
418.500000	321.668100 
419.000000	338.237504 
419.500000	355.296747 
420.000000	372.728709 
420.500000	390.506952 
421.000000	408.712948 
421.500000	426.936419 
422.000000	445.165168 
422.500000	463.087256 
423.000000	480.557195 
423.500000	497.599369 
424.000000	514.488785 
424.500000	531.088034 
425.000000	547.705245 
425.500000	564.142679 
426.000000	580.398018 
426.500000	596.388576 
427.000000	612.368716 
427.500000	628.329888 
428.000000	644.315525 
428.500000	660.199624 
429.000000	675.925453 
429.500000	691.269912 
430.000000	706.122330 
430.500000	720.538358 
431.000000	734.490743 
431.500000	748.053117 
432.000000	761.250022 
432.500000	774.126676 
433.000000	786.467959 
433.500000	798.541489 
434.000000	810.135030 
434.500000	821.290944 
435.000000	831.796230 
435.500000	841.893174 
436.000000	851.350112 
436.500000	860.266163 
437.000000	868.334036 
437.500000	875.657545 
438.000000	882.004463 
438.500000	887.632168 
439.000000	892.514820 
439.500000	896.797036 
440.000000	900.323825 
440.500000	903.370358 
441.000000	905.715637 
441.500000	907.403885 
442.000000	908.434839 
442.500000	908.730741 
443.000000	908.048945 
443.500000	906.502419 
444.000000	904.140803 
444.500000	901.135578 
445.000000	897.741136 
445.500000	894.002589 
446.000000	889.916567 
446.500000	885.428728 
447.000000	880.666503 
447.500000	875.577867 
448.000000	870.277019 
448.500000	864.786891 
449.000000	859.076397 
449.500000	852.876513 
450.000000	846.231276 
450.500000	839.132387 
451.000000	831.764755 
451.500000	824.310347 
452.000000	816.640535 
452.500000	808.658697 
453.000000	800.407018 
453.500000	791.871976 
454.000000	783.035549 
454.500000	774.271165 
455.000000	765.489609 
455.500000	756.591504 
456.000000	747.696464 
456.500000	738.810569 
457.000000	729.738796 
457.500000	720.678026 
458.000000	711.659364 
458.500000	702.461223 
459.000000	693.067610 
459.500000	683.602002 
460.000000	673.941234 
460.500000	664.197165 
461.000000	654.645919 
461.500000	645.331242 
462.000000	636.203744 
462.500000	627.295567 
463.000000	618.688136 
463.500000	610.270112 
464.000000	602.067423 
464.500000	594.021340 
465.000000	586.041839 
465.500000	577.969419 
466.000000	569.876789 
466.500000	561.806026 
467.000000	553.844920 
467.500000	546.047909 
468.000000	538.507984 
468.500000	531.056900 
469.000000	523.696528 
469.500000	516.383559 
470.000000	509.117567 
470.500000	501.875182 
471.000000	494.705470 
471.500000	487.654133 
472.000000	480.739343 
472.500000	473.918253 
473.000000	467.165994 
473.500000	460.505888 
474.000000	453.817476 
474.500000	447.053651 
475.000000	440.302405 
475.500000	433.493589 
476.000000	426.753189 
476.500000	420.140827 
477.000000	413.610368 
477.500000	407.100308 
478.000000	400.704824 
478.500000	394.390620 
479.000000	388.164602 
479.500000	382.059488 
480.000000	376.086719 
480.500000	370.146192 
481.000000	364.228499 
481.500000	358.272976 
482.000000	352.217039 
482.500000	346.067838 
483.000000	339.897164 
483.500000	333.761669 
484.000000	327.742723 
484.500000	321.919525 
485.000000	316.203676 
485.500000	310.593736 
486.000000	305.079256 
486.500000	299.636852 
487.000000	294.255344 
487.500000	288.906217 
488.000000	283.497429 
488.500000	278.040242 
489.000000	272.553370 
489.500000	267.101531 
490.000000	261.707799 
490.500000	256.453269 
491.000000	251.326238 
491.500000	246.357772 
492.000000	241.520075 
492.500000	236.840767 
493.000000	232.280210 
493.500000	227.821503 
494.000000	223.518735 
494.500000	219.374735 
495.000000	215.346057 
495.500000	211.395960 
496.000000	207.413340 
496.500000	203.389662 
497.000000	199.374792 
497.500000	195.428559 
498.000000	191.602990 
498.500000	187.905616 
499.000000	184.241955 
499.500000	180.610361 
500.000000	177.011157 
500.500000	173.463768 
501.000000	170.028447 
501.500000	166.761164 
502.000000	163.578578 
502.500000	160.519850 
503.000000	157.539984 
503.500000	154.604747 
504.000000	151.689741 
504.500000	148.787168 
505.000000	145.884179 
505.500000	143.010143 
506.000000	140.225645 
506.500000	137.494687 
507.000000	134.811327 
507.500000	132.130832 
508.000000	129.410488 
508.500000	126.658808 
509.000000	123.974504 
509.500000	121.375665 
510.000000	118.922820 
510.500000	116.558641 
511.000000	114.230552 
511.500000	111.876595 
512.000000	109.485467 
512.500000	107.033152 
513.000000	104.627889 
513.500000	102.242184 
514.000000	99.884161  
514.500000	97.559458  
515.000000	95.260117  
515.500000	92.966998  
516.000000	90.776743  
516.500000	88.637090  
517.000000	86.534793  
517.500000	84.476641  
518.000000	82.455025  
518.500000	80.425503  
519.000000	78.434566  
519.500000	76.453615  
520.000000	74.440489  
520.500000	72.420076  
521.000000	70.431983  
521.500000	68.495641  
522.000000	66.644227  
522.500000	64.878357  
523.000000	63.154835  
523.500000	61.466839  
524.000000	59.816224  
524.500000	58.222326  
525.000000	56.693433  
525.500000	55.195114  
526.000000	53.705718  
526.500000	52.225704  
527.000000	50.731168  
527.500000	49.226096  
528.000000	47.767789  
528.500000	46.332553  
529.000000	44.934315  
529.500000	43.617606  
530.000000	42.372147  
530.500000	41.177631  
531.000000	40.067687  
531.500000	38.996907  
532.000000	37.939170  
532.500000	36.897440  
533.000000	35.859697  
533.500000	34.804813  
534.000000	33.767563  
534.500000	32.723683  
535.000000	31.692822  
535.500000	30.707581  
536.000000	29.753481  
536.500000	28.841998  
537.000000	27.996623  
537.500000	27.193857  
538.000000	26.444071  
538.500000	25.748037  
539.000000	25.076990  
539.500000	24.419351  
540.000000	23.763898  
540.500000	23.098118  
541.000000	22.456085  
541.500000	21.860654  
542.000000	21.307145  
542.500000	20.794213  
543.000000	20.296195  
543.500000	19.785517  
544.000000	19.273175  
544.500000	18.760283  
545.000000	18.260716  
545.500000	17.782213  
546.000000	17.329196  
546.500000	16.891535  
547.000000	16.474559  
547.500000	16.083248  
548.000000	15.712490  
548.500000	15.356825  
549.000000	15.013359  
549.500000	14.674496  
550.000000	14.341605  
550.500000	14.011721  
551.000000	13.682146  
551.500000	13.354620  
552.000000	13.032245  
552.500000	12.716301  
553.000000	12.411497  
553.500000	12.121064  
554.000000	11.843209  
554.500000	11.576292  
555.000000	11.317741  
555.500000	11.069504  
556.000000	10.841244  
556.500000	10.616189  
557.000000	10.399813  
557.500000	10.190048  
558.000000	9.975859   
558.500000	9.757669   
559.000000	9.542746   
559.500000	9.322873   
560.000000	9.106376   
560.500000	8.896061   
561.000000	8.690168   
561.500000	8.493235   
562.000000	8.311287   
562.500000	8.142351   
563.000000	7.984513   
563.500000	7.832949   
564.000000	7.677928   
564.500000	7.518983   
565.000000	7.354111   
565.500000	7.192582   
566.000000	7.039026   
566.500000	6.894037   
567.000000	6.759675   
567.500000	6.635333   
568.000000	6.516170   
568.500000	6.399495   
569.000000	6.281223   
569.500000	6.159340   
570.000000	6.038232   
570.500000	5.924677   
571.000000	5.826676   
571.500000	5.738730   
572.000000	5.657475   
572.500000	5.568804   
573.000000	5.466488   
573.500000	5.348873   
574.000000	5.233808   
574.500000	5.126464   
575.000000	5.037969   
575.500000	4.962721   
576.000000	4.894092   
576.500000	4.818778   
577.000000	4.732669   
577.500000	4.634375   
578.000000	4.538171   
578.500000	4.448115   
579.000000	4.369087   
579.500000	4.296998   
580.000000	4.220172   
580.500000	4.139185   
581.000000	4.059894   
581.500000	3.985969   
582.000000	3.920451   
582.500000	3.864983   
583.000000	3.806357   
583.500000	3.741828   
584.000000	3.676719   
584.500000	3.615365   
585.000000	3.563018   
585.500000	3.517453   
586.000000	3.470370   
586.500000	3.415545   
587.000000	3.357762   
587.500000	3.304136   
588.000000	3.259910   
588.500000	3.224863   
589.000000	3.195379   
589.500000	3.164523   
590.000000	3.126322   
590.500000	3.080556   
591.000000	3.034153   
591.500000	2.990916   
592.000000	2.954071   
592.500000	2.925266   
593.000000	2.904521   
593.500000	2.889350   
594.000000	2.874709   
594.500000	2.854610   
595.000000	2.828609   
595.500000	2.797267   
596.000000	2.765103   
596.500000	2.736428   

