PE FL                   SPECTRUM    ASCII       PEDS        1.60        
  -1
DMF6BC~1.TXT
18/01/12
12:53:18.00
18/01/12
12:53:18.00


598.500000
1









LS55
350.00
3.00
2.50
SCAN
1
20
100
100
0
60
0
1
0
1
7
ON
426 350 
1 0 0
#HDR
-1
-1
#GR
NM

0.00002384185791015625
0.0
400.000000
0.500000
398
8
626.465000
2.403000
#DATA
400.000000	235.207000 
400.500000	252.728000 
401.000000	260.818000 
401.500000	271.870000 
402.000000	280.758000 
402.500000	290.953000 
403.000000	301.706000 
403.500000	311.483000 
404.000000	322.439000 
404.500000	333.036000 
405.000000	344.697000 
405.500000	351.240000 
406.000000	365.438000 
406.500000	374.419000 
407.000000	383.835000 
407.500000	394.007000 
408.000000	403.152000 
408.500000	412.789000 
409.000000	426.518000 
409.500000	428.025000 
410.000000	436.540000 
410.500000	452.939000 
411.000000	457.425000 
411.500000	470.880000 
412.000000	483.749000 
412.500000	488.936000 
413.000000	495.559000 
413.500000	507.990000 
414.000000	515.552000 
414.500000	523.323000 
415.000000	533.280000 
415.500000	541.684000 
416.000000	548.236000 
416.500000	550.128000 
417.000000	560.636000 
417.500000	561.630000 
418.000000	570.168000 
418.500000	578.478000 
419.000000	579.910000 
419.500000	581.756000 
420.000000	590.487000 
420.500000	594.256000 
421.000000	603.461000 
421.500000	608.285000 
422.000000	603.342000 
422.500000	611.462000 
423.000000	609.771000 
423.500000	612.678000 
424.000000	618.410999 
424.500000	621.197000 
425.000000	623.353000 
425.500000	620.338000 
426.000000	616.668000 
426.500000	621.400000 
427.000000	624.216000 
427.500000	622.280000 
428.000000	625.115000 
428.500000	625.674000 
429.000000	626.465000 
429.500000	620.176000 
430.000000	622.901000 
430.500000	622.066000 
431.000000	623.670000 
431.500000	618.338000 
432.000000	617.451000 
432.500000	616.192000 
433.000000	608.271000 
433.500000	612.812000 
434.000000	613.365000 
434.500000	605.625000 
435.000000	605.243000 
435.500000	605.895000 
436.000000	598.485000 
436.500000	595.721000 
437.000000	591.177000 
437.500000	588.857000 
438.000000	589.025000 
438.500000	582.838000 
439.000000	581.700000 
439.500000	572.785999 
440.000000	564.640000 
440.500000	563.688000 
441.000000	560.815000 
441.500000	556.963000 
442.000000	551.057000 
442.500000	547.704000 
443.000000	547.509000 
443.500000	539.199000 
444.000000	531.453000 
444.500000	526.176000 
445.000000	517.570000 
445.500000	512.089000 
446.000000	508.628000 
446.500000	501.024000 
447.000000	495.485000 
447.500000	493.207000 
448.000000	483.449000 
448.500000	478.050000 
449.000000	475.228000 
449.500000	475.067000 
450.000000	463.691000 
450.500000	455.760000 
451.000000	449.102000 
451.500000	445.964000 
452.000000	440.944000 
452.500000	437.980000 
453.000000	431.114000 
453.500000	424.975000 
454.000000	417.129000 
454.500000	412.124000 
455.000000	410.058000 
455.500000	399.395000 
456.000000	394.500000 
456.500000	386.904000 
457.000000	379.659000 
457.500000	383.440000 
458.000000	375.620000 
458.500000	367.642000 
459.000000	365.251000 
459.500000	356.774000 
460.000000	353.769000 
460.500000	349.576000 
461.000000	338.027000 
461.500000	336.091000 
462.000000	327.864000 
462.500000	322.286000 
463.000000	317.714000 
463.500000	312.362000 
464.000000	308.989000 
464.500000	303.540000 
465.000000	296.317000 
465.500000	292.957000 
466.000000	292.242000 
466.500000	286.984000 
467.000000	280.071000 
467.500000	276.721000 
468.000000	271.596000 
468.500000	264.185000 
469.000000	263.581000 
469.500000	255.329000 
470.000000	251.104000 
470.500000	251.649000 
471.000000	246.095000 
471.500000	241.590000 
472.000000	239.265000 
472.500000	232.651000 
473.000000	231.299000 
473.500000	228.799000 
474.000000	223.139000 
474.500000	217.361000 
475.000000	216.046000 
475.500000	214.769000 
476.000000	208.148000 
476.500000	207.628000 
477.000000	207.418000 
477.500000	201.334000 
478.000000	195.248000 
478.500000	197.949000 
479.000000	195.391000 
479.500000	188.716000 
480.000000	185.512000 
480.500000	182.631000 
481.000000	180.261000 
481.500000	179.416000 
482.000000	174.566000 
482.500000	171.422000 
483.000000	166.595000 
483.500000	165.399000 
484.000000	163.608000 
484.500000	163.102000 
485.000000	156.627000 
485.500000	154.243000 
486.000000	152.374000 
486.500000	151.921000 
487.000000	149.580000 
487.500000	148.998000 
488.000000	146.370000 
488.500000	141.172000 
489.000000	138.827000 
489.500000	138.234000 
490.000000	133.815000 
490.500000	134.365000 
491.000000	132.505000 
491.500000	127.390000 
492.000000	127.079000 
492.500000	127.619000 
493.000000	124.520000 
493.500000	122.945000 
494.000000	119.195000 
494.500000	118.593000 
495.000000	118.555000 
495.500000	116.866000 
496.000000	116.766000 
496.500000	112.245000 
497.000000	110.935000 
497.500000	108.266000 
498.000000	105.698000 
498.500000	103.607000 
499.000000	104.675000 
499.500000	100.719000 
500.000000	101.763000 
500.500000	98.060000  
501.000000	98.305000  
501.500000	96.312000  
502.000000	93.944999  
502.500000	92.009000  
503.000000	92.357000  
503.500000	91.819999  
504.000000	88.630000  
504.500000	86.667000  
505.000000	84.099000  
505.500000	83.384000  
506.000000	82.913000  
506.500000	83.339000  
507.000000	80.641000  
507.500000	79.137000  
508.000000	78.014000  
508.500000	75.917000  
509.000000	75.986000  
509.500000	73.459999  
510.000000	71.727999  
510.500000	71.349999  
511.000000	69.706000  
511.500000	69.212000  
512.000000	67.665000  
512.500000	65.331999  
513.000000	66.509000  
513.500000	64.479000  
514.000000	61.647000  
514.500000	60.261000  
515.000000	60.055000  
515.500000	57.428000  
516.000000	57.106000  
516.500000	55.171000  
517.000000	54.012000  
517.500000	54.879000  
518.000000	53.106000  
518.500000	51.666000  
519.000000	50.420000  
519.500000	47.890000  
520.000000	46.500000  
520.500000	46.525000  
521.000000	46.957000  
521.500000	46.764000  
522.000000	43.057000  
522.500000	42.696000  
523.000000	41.650000  
523.500000	41.978000  
524.000000	40.558000  
524.500000	37.792000  
525.000000	39.426000  
525.500000	37.001000  
526.000000	36.774000  
526.500000	35.079000  
527.000000	34.135000  
527.500000	32.977000  
528.000000	32.570000  
528.500000	31.606000  
529.000000	30.072000  
529.500000	29.784000  
530.000000	28.542000  
530.500000	28.386000  
531.000000	27.986000  
531.500000	27.726000  
532.000000	26.316000  
532.500000	26.549000  
533.000000	25.453000  
533.500000	25.013000  
534.000000	23.562000  
534.500000	23.445000  
535.000000	23.010000  
535.500000	22.988000  
536.000000	22.843000  
536.500000	22.146000  
537.000000	20.834000  
537.500000	19.934000  
538.000000	19.357000  
538.500000	19.129000  
539.000000	19.103000  
539.500000	18.197000  
540.000000	17.761000  
540.500000	17.820000  
541.000000	17.821000  
541.500000	17.354000  
542.000000	16.163000  
542.500000	16.559000  
543.000000	17.542000  
543.500000	15.947000  
544.000000	15.160000  
544.500000	15.295000  
545.000000	14.371000  
545.500000	14.063000  
546.000000	13.953000  
546.500000	13.528000  
547.000000	12.924000  
547.500000	12.755000  
548.000000	12.005000  
548.500000	12.553000  
549.000000	12.594000  
549.500000	12.228000  
550.000000	11.003000  
550.500000	11.260000  
551.000000	11.717000  
551.500000	11.476000  
552.000000	10.804000  
552.500000	10.372000  
553.000000	10.224000  
553.500000	10.604000  
554.000000	10.201000  
554.500000	10.026000  
555.000000	10.399000  
555.500000	9.336000   
556.000000	9.340000   
556.500000	8.701000   
557.000000	9.227000   
557.500000	9.766999   
558.000000	9.146000   
558.500000	9.115000   
559.000000	8.137000   
559.500000	8.218999   
560.000000	8.432000   
560.500000	8.208000   
561.000000	8.372999   
561.500000	8.227000   
562.000000	7.861000   
562.500000	7.986000   
563.000000	7.631000   
563.500000	6.974000   
564.000000	7.423000   
564.500000	7.080000   
565.000000	7.576000   
565.500000	7.691000   
566.000000	6.892000   
566.500000	6.603000   
567.000000	6.277000   
567.500000	6.216000   
568.000000	6.632000   
568.500000	6.320000   
569.000000	6.557000   
569.500000	5.807000   
570.000000	6.053000   
570.500000	6.056000   
571.000000	5.338000   
571.500000	5.330000   
572.000000	5.223000   
572.500000	5.219000   
573.000000	4.992000   
573.500000	4.908000   
574.000000	4.900000   
574.500000	4.824000   
575.000000	4.602000   
575.500000	5.203000   
576.000000	5.155000   
576.500000	4.654000   
577.000000	4.634000   
577.500000	4.633000   
578.000000	4.480000   
578.500000	4.280000   
579.000000	4.618000   
579.500000	4.356000   
580.000000	4.210000   
580.500000	4.559000   
581.000000	4.383000   
581.500000	4.551000   
582.000000	4.442000   
582.500000	4.052000   
583.000000	3.731000   
583.500000	3.854000   
584.000000	4.014000   
584.500000	4.047000   
585.000000	3.981000   
585.500000	3.527000   
586.000000	3.781000   
586.500000	3.745000   
587.000000	3.075000   
587.500000	3.428000   
588.000000	3.131000   
588.500000	3.457000   
589.000000	3.288000   
589.500000	3.343000   
590.000000	2.969000   
590.500000	3.056000   
591.000000	3.214000   
591.500000	3.326000   
592.000000	3.238000   
592.500000	3.271000   
593.000000	2.965000   
593.500000	3.239000   
594.000000	3.013000   
594.500000	2.814000   
595.000000	3.142000   
595.500000	2.771000   
596.000000	2.703000   
596.500000	2.725000   
597.000000	2.519000   
597.500000	2.485000   
598.000000	2.678000   
598.500000	2.403000   

