PE FL                   SPECTRUM    ASCII       PEDS        1.60        
  -1
DMDAE2~1.TXT
18/03/08
10:55:31.00
18/03/08
10:55:31.00


596.500000
1









LS55
350.00
11.00
2.90
SCAN
1
20
100
100
0
60
0
1
0
1
7
ON
600 350 
1 0 0
#HDR
-1
-1
#GR
NM

0.00002384185791015625
0.0
400.000000
0.500000
394
8
913.555769
2.732635
#DATA
400.000000	26.088000  
400.500000	28.792472  
401.000000	31.406931  
401.500000	33.986178  
402.000000	36.571115  
402.500000	39.242797  
403.000000	42.110623  
403.500000	45.234740  
404.000000	48.596086  
404.500000	52.276210  
405.000000	56.302921  
405.500000	60.726722  
406.000000	65.539682  
406.500000	70.723700  
407.000000	76.196064  
407.500000	81.967280  
408.000000	87.942387  
408.500000	94.179827  
409.000000	100.785965 
409.500000	107.895368 
410.000000	115.546580 
410.500000	123.763841 
411.000000	132.378605 
411.500000	141.335217 
412.000000	150.724755 
412.500000	160.734509 
413.000000	171.462793 
413.500000	182.995337 
414.000000	195.092082 
414.500000	207.506998 
415.000000	220.231585 
415.500000	233.386962 
416.000000	247.086859 
416.500000	261.515198 
417.000000	276.586085 
417.500000	292.028156 
418.000000	307.849944 
418.500000	324.022454 
419.000000	340.687917 
419.500000	357.956364 
420.000000	376.090380 
420.500000	395.063422 
421.000000	414.937443 
421.500000	435.286821 
422.000000	455.841644 
422.500000	475.943382 
423.000000	495.403573 
423.500000	514.109387 
424.000000	532.301661 
424.500000	549.961502 
425.000000	567.411391 
425.500000	584.420539 
426.000000	600.927774 
426.500000	616.925765 
427.000000	632.551297 
427.500000	647.835960 
428.000000	663.068121 
428.500000	678.220100 
429.000000	693.267364 
429.500000	708.111107 
430.000000	722.590062 
430.500000	736.616917 
431.000000	750.171012 
431.500000	763.299461 
432.000000	776.101389 
432.500000	788.472960 
433.000000	800.337651 
433.500000	811.740880 
434.000000	822.506218 
434.500000	832.710979 
435.000000	842.621326 
435.500000	852.158094 
436.000000	861.243457 
436.500000	869.862503 
437.000000	877.604987 
437.500000	884.385015 
438.000000	890.473796 
438.500000	895.844111 
439.000000	900.521383 
439.500000	904.609860 
440.000000	907.875429 
440.500000	910.272640 
441.000000	912.019912 
441.500000	913.104748 
442.000000	913.555769 
442.500000	913.410186 
443.000000	912.548499 
443.500000	910.938251 
444.000000	908.890474 
444.500000	906.364372 
445.000000	903.442854 
445.500000	900.105191 
446.000000	896.153612 
446.500000	891.621142 
447.000000	886.748205 
447.500000	881.400283 
448.000000	875.758938 
448.500000	869.924947 
449.000000	863.733114 
449.500000	857.241746 
450.000000	850.498630 
450.500000	843.465817 
451.000000	836.063878 
451.500000	828.477574 
452.000000	820.608641 
452.500000	812.565348 
453.000000	804.367907 
453.500000	796.088778 
454.000000	787.615269 
454.500000	779.036682 
455.000000	770.374930 
455.500000	761.673432 
456.000000	752.946849 
456.500000	744.184967 
457.000000	735.359198 
457.500000	726.402205 
458.000000	717.250900 
458.500000	707.816429 
459.000000	698.201507 
459.500000	688.261230 
460.000000	678.275959 
460.500000	668.374267 
461.000000	658.627509 
461.500000	649.165336 
462.000000	639.998807 
462.500000	630.964903 
463.000000	622.222661 
463.500000	613.695930 
464.000000	605.278468 
464.500000	597.012765 
465.000000	588.787259 
465.500000	580.499001 
466.000000	572.316606 
466.500000	564.278845 
467.000000	556.445375 
467.500000	548.899806 
468.000000	541.482679 
468.500000	534.053592 
469.000000	526.734616 
469.500000	519.397751 
470.000000	512.076142 
470.500000	504.823323 
471.000000	497.646152 
471.500000	490.438461 
472.000000	483.320675 
472.500000	476.232280 
473.000000	469.130044 
473.500000	461.987333 
474.000000	454.846103 
474.500000	447.663921 
475.000000	440.476990 
475.500000	433.404343 
476.000000	426.505624 
476.500000	419.711599 
477.000000	413.090694 
477.500000	406.659905 
478.000000	400.264871 
478.500000	393.926404 
479.000000	387.665228 
479.500000	381.389446 
480.000000	375.125528 
480.500000	368.911460 
481.000000	362.710815 
481.500000	356.585935 
482.000000	350.524666 
482.500000	344.494016 
483.000000	338.504069 
483.500000	332.576875 
484.000000	326.693121 
484.500000	320.943857 
485.000000	315.265532 
485.500000	309.668037 
486.000000	304.081659 
486.500000	298.563022 
487.000000	293.112414 
487.500000	287.775461 
488.000000	282.472592 
488.500000	277.157359 
489.000000	271.709524 
489.500000	266.169824 
490.000000	260.600344 
490.500000	255.094502 
491.000000	249.713981 
491.500000	244.556675 
492.000000	239.672313 
492.500000	235.048691 
493.000000	230.622068 
493.500000	226.340972 
494.000000	222.108891 
494.500000	217.862486 
495.000000	213.668344 
495.500000	209.541623 
496.000000	205.455069 
496.500000	201.433170 
497.000000	197.443323 
497.500000	193.459366 
498.000000	189.573370 
498.500000	185.791502 
499.000000	182.132027 
499.500000	178.574969 
500.000000	175.079405 
500.500000	171.605129 
501.000000	168.244762 
501.500000	164.953128 
502.000000	161.766891 
502.500000	158.670298 
503.000000	155.684679 
503.500000	152.755062 
504.000000	149.865156 
504.500000	146.955100 
505.000000	144.054797 
505.500000	141.138496 
506.000000	138.322887 
506.500000	135.617624 
507.000000	132.971262 
507.500000	130.318829 
508.000000	127.677666 
508.500000	125.004781 
509.000000	122.384393 
509.500000	119.891453 
510.000000	117.525702 
510.500000	115.202062 
511.000000	112.878029 
511.500000	110.526276 
512.000000	108.144211 
512.500000	105.738881 
513.000000	103.336145 
513.500000	100.929220 
514.000000	98.538617  
514.500000	96.193757  
515.000000	93.923698  
515.500000	91.736018  
516.000000	89.592965  
516.500000	87.473655  
517.000000	85.380133  
517.500000	83.317792  
518.000000	81.295649  
518.500000	79.341253  
519.000000	77.408359  
519.500000	75.491146  
520.000000	73.555355  
520.500000	71.621836  
521.000000	69.706831  
521.500000	67.835651  
522.000000	65.970672  
522.500000	64.156675  
523.000000	62.365705  
523.500000	60.611714  
524.000000	58.908129  
524.500000	57.281807  
525.000000	55.688811  
525.500000	54.149542  
526.000000	52.647139  
526.500000	51.187637  
527.000000	49.730213  
527.500000	48.290447  
528.000000	46.865524  
528.500000	45.456532  
529.000000	44.073036  
529.500000	42.758514  
530.000000	41.488490  
530.500000	40.257647  
531.000000	39.060938  
531.500000	37.886811  
532.000000	36.737952  
532.500000	35.651391  
533.000000	34.626372  
533.500000	33.643503  
534.000000	32.689323  
534.500000	31.733769  
535.000000	30.785002  
535.500000	29.851174  
536.000000	28.958044  
536.500000	28.119246  
537.000000	27.330698  
537.500000	26.588032  
538.000000	25.887977  
538.500000	25.207930  
539.000000	24.546372  
539.500000	23.895152  
540.000000	23.245923  
540.500000	22.605264  
541.000000	21.999617  
541.500000	21.417538  
542.000000	20.860841  
542.500000	20.327203  
543.000000	19.802107  
543.500000	19.283905  
544.000000	18.787656  
544.500000	18.300269  
545.000000	17.824018  
545.500000	17.371052  
546.000000	16.932884  
546.500000	16.498853  
547.000000	16.089927  
547.500000	15.691624  
548.000000	15.298290  
548.500000	14.924538  
549.000000	14.576203  
549.500000	14.238400  
550.000000	13.922690  
550.500000	13.618172  
551.000000	13.306902  
551.500000	12.986433  
552.000000	12.670963  
552.500000	12.357612  
553.000000	12.056504  
553.500000	11.776002  
554.000000	11.519502  
554.500000	11.272549  
555.000000	11.027980  
555.500000	10.785882  
556.000000	10.537552  
556.500000	10.289552  
557.000000	10.050115  
557.500000	9.826931   
558.000000	9.613449   
558.500000	9.415357   
559.000000	9.224697   
559.500000	9.025362   
560.000000	8.817942   
560.500000	8.609397   
561.000000	8.399347   
561.500000	8.201691   
562.000000	8.022718   
562.500000	7.859390   
563.000000	7.710093   
563.500000	7.565502   
564.000000	7.415354   
564.500000	7.261818   
565.000000	7.108875   
565.500000	6.960919   
566.000000	6.820737   
566.500000	6.691704   
567.000000	6.568177   
567.500000	6.446008   
568.000000	6.318606   
568.500000	6.192470   
569.000000	6.066379   
569.500000	5.950128   
570.000000	5.841969   
570.500000	5.736188   
571.000000	5.631955   
571.500000	5.532930   
572.000000	5.436761   
572.500000	5.345997   
573.000000	5.257482   
573.500000	5.164400   
574.000000	5.064315   
574.500000	4.958340   
575.000000	4.853065   
575.500000	4.756527   
576.000000	4.668592   
576.500000	4.582214   
577.000000	4.501135   
577.500000	4.424004   
578.000000	4.349428   
578.500000	4.281520   
579.000000	4.218662   
579.500000	4.150165   
580.000000	4.081004   
580.500000	4.015284   
581.000000	3.952152   
581.500000	3.890163   
582.000000	3.832739   
582.500000	3.772534   
583.000000	3.707829   
583.500000	3.641506   
584.000000	3.580655   
584.500000	3.525131   
585.000000	3.473269   
585.500000	3.426881   
586.000000	3.384463   
586.500000	3.339447   
587.000000	3.294965   
587.500000	3.253598   
588.000000	3.209389   
588.500000	3.169104   
589.000000	3.133391   
589.500000	3.100125   
590.000000	3.064702   
590.500000	3.033651   
591.000000	3.000387   
591.500000	2.966995   
592.000000	2.933228   
592.500000	2.900531   
593.000000	2.870485   
593.500000	2.842490   
594.000000	2.815866   
594.500000	2.793686   
595.000000	2.776700   
595.500000	2.761255   
596.000000	2.747856   
596.500000	2.732635   

